#Incident particle is a   Muon with M =   105.65839 MeV
#Index =   13:  aluminum (Al)
#    Absorber with Z =  13,  A = 26.9815385(7), density = 2.699
#Sternheimer coef:  a     k=m_s   x_0    x_1    I[eV]   Cbar  delta0
#                0.0802  3.6345  0.1708  3.0127  166.0  4.2395 0.12
#(Restricted energy loss for Tcut = 0.05 MeV
#Table written with (1X, 1P9E10.3,0PF8.4,f8.5,1pE10.3)          post-Born included in pair prod
#*** Results below 10 MeV are not dependable ***
#     T         p     Ionization  brems     pair     photonuc  Radloss    dE/dx   CSDA Range  delta   beta   dE/dx_R
#   [MeV]    [MeV/c]  -----------------------[MeV cm^2/g]------------------------  [g/cm^2]                [MeV cm^2/g]
 1.000E+00 1.457E+01 2.540E+00 0.000E+00 0.000E+00 4.688E-05 4.688E-05 5.080E+00 2.569E-03  0.0010 0.13661 3.679E+01
 1.200E+00 1.597E+01 3.200E+01 0.000E+00 0.000E+00 4.696E-05 4.696E-05 3.200E+01 8.415E-03  0.0012 0.14944 3.200E+01
 1.400E+00 1.726E+01 2.842E+01 0.000E+00 0.000E+00 4.705E-05 4.705E-05 2.842E+01 1.506E-02  0.0015 0.16119 2.842E+01
 1.700E+00 1.903E+01 2.445E+01 0.000E+00 0.000E+00 4.718E-05 4.718E-05 2.445E+01 2.648E-02  0.0018 0.17725 2.445E+01
 2.000E+00 2.066E+01 2.154E+01 0.000E+00 0.000E+00 4.732E-05 4.732E-05 2.154E+01 3.958E-02  0.0021 0.19186 2.154E+01
 2.500E+00 2.312E+01 1.809E+01 0.000E+00 0.000E+00 4.754E-05 4.754E-05 1.809E+01 6.502E-02  0.0026 0.21376 1.809E+01
 3.000E+00 2.536E+01 1.568E+01 0.000E+00 0.000E+00 4.776E-05 4.776E-05 1.568E+01 9.480E-02  0.0031 0.23336 1.548E+01
 3.500E+00 2.742E+01 1.389E+01 0.000E+00 0.000E+00 4.798E-05 4.798E-05 1.389E+01 1.288E-01  0.0037 0.25120 1.355E+01
 4.000E+00 2.935E+01 1.251E+01 0.000E+00 0.000E+00 4.819E-05 4.819E-05 1.251E+01 1.668E-01  0.0042 0.26763 1.207E+01
 4.500E+00 3.116E+01 1.141E+01 0.000E+00 0.000E+00 4.841E-05 4.841E-05 1.141E+01 2.087E-01  0.0048 0.28290 1.091E+01
 5.000E+00 3.289E+01 1.051E+01 0.000E+00 0.000E+00 4.863E-05 4.863E-05 1.051E+01 2.544E-01  0.0053 0.29720 9.977E+00
 5.500E+00 3.453E+01 9.754E+00 0.000E+00 0.000E+00 4.885E-05 4.885E-05 9.754E+00 3.038E-01  0.0058 0.31066 9.203E+00
 6.000E+00 3.611E+01 9.118E+00 0.000E+00 0.000E+00 4.907E-05 4.907E-05 9.118E+00 3.569E-01  0.0064 0.32339 8.553E+00
 7.000E+00 3.909E+01 8.098E+00 0.000E+00 0.000E+00 4.951E-05 4.951E-05 8.098E+00 4.735E-01  0.0075 0.34700 7.520E+00
 8.000E+00 4.189E+01 7.315E+00 0.000E+00 0.000E+00 4.995E-05 4.995E-05 7.315E+00 6.036E-01  0.0086 0.36854 6.736E+00
 9.000E+00 4.453E+01 6.693E+00 0.000E+00 0.000E+00 5.039E-05 5.039E-05 6.693E+00 7.467E-01  0.0097 0.38836 6.119E+00
 1.000E+01 4.704E+01 6.188E+00 0.000E+00 0.000E+00 5.083E-05 5.083E-05 6.188E+00 9.023E-01  0.0108 0.40675 5.622E+00
 1.200E+01 5.177E+01 5.414E+00 0.000E+00 0.000E+00 5.171E-05 5.171E-05 5.414E+00 1.249E+00  0.0131 0.43998 4.869E+00
 1.400E+01 5.616E+01 4.849E+00 0.000E+00 0.000E+00 5.259E-05 5.259E-05 4.849E+00 1.640E+00  0.0154 0.46937 4.324E+00
 1.700E+01 6.230E+01 4.238E+00 0.000E+00 0.000E+00 5.391E-05 5.391E-05 4.238E+00 2.304E+00  0.0190 0.50792 3.742E+00
 2.000E+01 6.802E+01 3.802E+00 0.000E+00 0.000E+00 5.523E-05 5.523E-05 3.802E+00 3.053E+00  0.0226 0.54129 3.330E+00
 2.500E+01 7.686E+01 3.300E+00 0.000E+00 0.000E+00 5.742E-05 5.742E-05 3.300E+00 4.471E+00  0.0289 0.58827 2.860E+00
 3.000E+01 8.509E+01 2.960E+00 0.000E+00 0.000E+00 5.962E-05 5.962E-05 2.961E+00 6.075E+00  0.0354 0.62720 2.545E+00
 3.500E+01 9.285E+01 2.717E+00 0.000E+00 0.000E+00 6.182E-05 6.182E-05 2.717E+00 7.841E+00  0.0422 0.66011 2.320E+00
 4.000E+01 1.003E+02 2.533E+00 0.000E+00 0.000E+00 6.402E-05 6.402E-05 2.533E+00 9.750E+00  0.0492 0.68834 2.151E+00
 4.500E+01 1.074E+02 2.391E+00 0.000E+00 0.000E+00 6.621E-05 6.621E-05 2.391E+00 1.178E+01  0.0565 0.71286 2.019E+00
 5.000E+01 1.143E+02 2.278E+00 2.367E-07 0.000E+00 6.841E-05 6.865E-05 2.278E+00 1.393E+01  0.0640 0.73434 1.915E+00
 5.500E+01 1.210E+02 2.186E+00 1.164E-06 0.000E+00 7.061E-05 7.177E-05 2.186E+00 1.617E+01  0.0717 0.75332 1.830E+00
 6.000E+01 1.276E+02 2.110E+00 2.119E-06 0.000E+00 7.281E-05 7.493E-05 2.110E+00 1.850E+01  0.0797 0.77019 1.760E+00
 7.000E+01 1.403E+02 1.993E+00 4.112E-06 0.000E+00 7.720E-05 8.131E-05 1.993E+00 2.338E+01  0.0964 0.79887 1.651E+00
 8.000E+01 1.527E+02 1.908E+00 6.207E-06 0.000E+00 8.160E-05 8.780E-05 1.908E+00 2.851E+01  0.1141 0.82227 1.571E+00
 9.000E+01 1.647E+02 1.845E+00 8.399E-06 0.000E+00 8.599E-05 9.439E-05 1.845E+00 3.385E+01  0.1219 0.84166 1.512E+00
 1.000E+02 1.764E+02 1.797E+00 1.068E-05 0.000E+00 9.039E-05 1.011E-04 1.798E+00 3.934E+01  0.1276 0.85794 1.465E+00
 1.200E+02 1.994E+02 1.731E+00 1.552E-05 0.000E+00 9.918E-05 1.147E-04 1.731E+00 5.070E+01  0.1467 0.88361 1.399E+00
 1.400E+02 2.218E+02 1.688E+00 2.067E-05 0.000E+00 1.080E-04 1.286E-04 1.688E+00 6.241E+01  0.1725 0.90278 1.354E+00
 1.700E+02 2.546E+02 1.650E+00 2.894E-05 0.000E+00 1.212E-04 1.501E-04 1.650E+00 8.041E+01  0.2183 0.92363 1.310E+00
 2.000E+02 2.868E+02 1.629E+00 3.781E-05 0.000E+00 1.343E-04 1.721E-04 1.630E+00 9.871E+01  0.2686 0.93835 1.283E+00
 2.500E+02 3.396E+02 1.616E+00 5.375E-05 0.000E+00 1.563E-04 2.101E-04 1.616E+00 1.296E+02  0.3564 0.95485 1.257E+00
 2.775E+02 3.683E+02 1.615E+00 7.097E-05 0.000E+00 1.783E-04 2.493E-04 1.616E+00  Minimum ionization
 3.000E+02 3.917E+02 1.616E+00 7.097E-05 0.000E+00 1.783E-04 2.493E-04 1.616E+00 1.605E+02  0.4450 0.96548 1.244E+00
 3.500E+02 4.432E+02 1.621E+00 8.930E-05 0.000E+00 2.003E-04 2.896E-04 1.621E+00 1.914E+02  0.5322 0.97274 1.237E+00
 4.000E+02 4.945E+02 1.630E+00 1.086E-04 0.000E+00 2.222E-04 3.309E-04 1.630E+00 2.222E+02  0.6171 0.97793 1.233E+00
 4.500E+02 5.455E+02 1.639E+00 1.289E-04 0.000E+00 2.442E-04 3.731E-04 1.640E+00 2.527E+02  0.6991 0.98176 1.232E+00
 5.000E+02 5.964E+02 1.650E+00 1.499E-04 0.000E+00 2.662E-04 4.161E-04 1.650E+00 2.831E+02  0.7783 0.98467 1.232E+00
 5.500E+02 6.471E+02 1.660E+00 1.717E-04 0.000E+00 2.882E-04 4.599E-04 1.661E+00 3.133E+02  0.8547 0.98693 1.232E+00
 6.000E+02 6.977E+02 1.671E+00 1.942E-04 0.000E+00 3.101E-04 5.043E-04 1.671E+00 3.434E+02  0.9283 0.98873 1.234E+00
 7.000E+02 7.987E+02 1.691E+00 2.410E-04 0.000E+00 3.541E-04 5.951E-04 1.692E+00 4.028E+02  1.0679 0.99136 1.236E+00
 8.000E+02 8.995E+02 1.710E+00 2.901E-04 0.000E+00 3.980E-04 6.882E-04 1.711E+00 4.616E+02  1.1981 0.99317 1.240E+00
 9.000E+02 1.000E+03 1.728E+00 3.412E-04 0.000E+00 4.420E-04 7.832E-04 1.728E+00 5.197E+02  1.3201 0.99447 1.243E+00
 1.000E+03 1.101E+03 1.744E+00 3.942E-04 1.631E-05 4.859E-04 8.964E-04 1.745E+00 5.773E+02  1.4347 0.99542 1.246E+00
 1.200E+03 1.301E+03 1.772E+00 5.048E-04 9.282E-05 5.738E-04 1.171E-03 1.774E+00 6.910E+02  1.6451 0.99672 1.252E+00
 1.400E+03 1.502E+03 1.797E+00 6.209E-04 1.798E-04 6.617E-04 1.462E-03 1.799E+00 8.029E+02  1.8345 0.99753 1.257E+00
 1.700E+03 1.803E+03 1.829E+00 8.040E-04 3.268E-04 7.936E-04 1.924E-03 1.831E+00 9.682E+02  2.0874 0.99829 1.264E+00
 2.000E+03 2.103E+03 1.855E+00 9.962E-04 4.907E-04 9.287E-04 2.416E-03 1.858E+00 1.131E+03  2.3108 0.99874 1.269E+00
 2.500E+03 2.604E+03 1.891E+00 1.333E-03 7.954E-04 1.166E-03 3.295E-03 1.895E+00 1.397E+03  2.6337 0.99918 1.275E+00
 3.000E+03 3.104E+03 1.920E+00 1.688E-03 1.133E-03 1.406E-03 4.227E-03 1.925E+00 1.659E+03  2.9106 0.99942 1.280E+00
 3.500E+03 3.604E+03 1.945E+00 2.057E-03 1.497E-03 1.649E-03 5.203E-03 1.950E+00 1.917E+03  3.1532 0.99957 1.284E+00
 4.000E+03 4.104E+03 1.965E+00 2.439E-03 1.886E-03 1.894E-03 6.218E-03 1.971E+00 2.172E+03  3.3691 0.99967 1.287E+00
 4.500E+03 4.604E+03 1.983E+00 2.832E-03 2.295E-03 2.140E-03 7.267E-03 1.990E+00 2.425E+03  3.5639 0.99974 1.289E+00
 5.000E+03 5.105E+03 1.999E+00 3.236E-03 2.725E-03 2.384E-03 8.344E-03 2.007E+00 2.675E+03  3.7412 0.99979 1.291E+00
 5.500E+03 5.605E+03 2.013E+00 3.655E-03 3.181E-03 2.608E-03 9.444E-03 2.022E+00 2.923E+03  3.9041 0.99982 1.293E+00
 6.000E+03 6.105E+03 2.026E+00 4.083E-03 3.654E-03 2.831E-03 1.057E-02 2.036E+00 3.169E+03  4.0548 0.99985 1.294E+00
 7.000E+03 7.105E+03 2.048E+00 4.962E-03 4.643E-03 3.277E-03 1.288E-02 2.061E+00 3.657E+03  4.3259 0.99989 1.297E+00
 8.000E+03 8.105E+03 2.067E+00 5.868E-03 5.684E-03 3.719E-03 1.527E-02 2.082E+00 4.140E+03  4.5648 0.99992 1.298E+00
 9.000E+03 9.105E+03 2.083E+00 6.799E-03 6.769E-03 4.160E-03 1.773E-02 2.101E+00 4.618E+03  4.7784 0.99993 1.300E+00
